pc_timestamp,arduino_ms,node_position,ax,ay,az,gx,gy,gz,rssi
1785973441529,260422,Knee,0.191296,-0.967216,-0.163968,1.19,-4.2,-1.12,-64
1785973442057,260983,Knee,0.194224,-0.972584,-0.171288,2.1,-3.43,-0.49,-64
1785973442554,261467,Knee,0.1952,-0.968192,-0.177144,1.12,-4.41,-0.49,-65
1785973443062,261951,Knee,0.199592,-0.964776,-0.168848,1.47,-3.5,-0.91,-64
1785973443094,262031,Knee,0.19276,-0.970632,-0.15616,0.91,-4.41,-1.19,-64
1785973443677,262514,Knee,0.189344,-0.968192,-0.160064,1.05,-4.06,-0.77,-65
1785973443678,262593,Knee,0.186904,-0.964776,-0.16348,1.96,-3.92,-0.7,-65
1785973444188,263074,Knee,0.189832,-0.965264,-0.165432,1.33,-4.34,-0.91,-64
1785973444216,263154,Knee,0.192272,-0.965752,-0.16348,1.4,-4.2,-0.77,-64
1785973444700,263553,Knee,0.189832,-0.964288,-0.16348,1.61,-4.13,-0.98,-63
1785973444708,263633,Knee,0.187392,-0.965264,-0.16592,1.54,-4.2,-0.7,-63
1785973445212,264116,Knee,0.19032,-0.967216,-0.167872,1.75,-4.06,-0.7,-63
1785973445220,264196,Knee,0.190808,-0.967704,-0.164456,1.33,-4.2,-1.05,-63
1785973445724,264594,Knee,0.18788,-0.96868,-0.161528,1.4,-4.2,-1.05,-64
1785973445752,264673,Knee,0.186904,-0.96136,-0.16592,1.54,-3.99,-0.91,-64
1785973446236,265153,Knee,0.189832,-0.967704,-0.162992,1.61,-4.06,-0.84,-64
1785973446748,265639,Knee,0.189832,-0.967216,-0.166408,1.33,-4.13,-0.77,-64
1785973447280,266203,Knee,0.187392,-0.965264,-0.162016,1.05,-4.06,-0.91,-63
1785973447772,266685,Knee,0.188856,-0.966728,-0.161528,1.33,-4.2,-0.91,-64
1785973448386,267250,Knee,0.188856,-0.965264,-0.166408,1.47,-4.13,-0.7,-64
1785973448405,267330,Knee,0.185928,-0.966728,-0.161528,1.47,-4.06,-0.7,-64
1785973448898,267730,Knee,0.188856,-0.965752,-0.165432,1.26,-4.2,-0.77,-64
1785973448900,267811,Knee,0.188856,-0.967704,-0.166408,1.33,-4.06,-0.91,-64
1785973448905,267891,Knee,0.19032,-0.9638,-0.164456,1.4,-4.27,-0.91,-64
1785973449411,268294,Knee,0.184464,-0.966728,-0.163968,1.26,-4.2,-0.98,-64
1785973449412,268373,Knee,0.190808,-0.968192,-0.16836,1.75,-3.92,-0.91,-64
1785973449935,268854,Knee,0.192272,-0.960384,-0.174216,1.4,-4.34,-0.91,-64
1785973450434,269335,Knee,0.188856,-0.96868,-0.162992,0.98,-4.55,-1.47,-65
1785973450437,269416,Knee,0.197152,-0.967216,-0.167384,0.49,-4.62,-1.47,-65
1785973450980,269898,Knee,0.189344,-0.955992,-0.176168,1.89,-4.13,-1.19,-65
1785973451468,270380,Knee,0.194224,-0.96624,-0.169824,1.89,-3.99,-0.49,-66
1785973451974,270862,Knee,0.189832,-0.964776,-0.160064,1.68,-3.43,-0.42,-65
1785973452588,271423,Knee,0.188856,-0.9638,-0.169336,1.47,-4.13,-1.05,-65
1785973452596,271504,Knee,0.188368,-0.9638,-0.165432,1.47,-3.99,-0.91,-65
1785973453098,271985,Knee,0.186904,-0.964776,-0.164944,1.61,-3.92,-0.91,-64
1785973453611,272466,Knee,0.188368,-0.968192,-0.16348,1.33,-4.13,-0.91,-64
1785973453624,272547,Knee,0.188368,-0.96624,-0.165432,1.33,-4.2,-0.77,-64
1785973454122,273025,Knee,0.189344,-0.971608,-0.165432,1.33,-4.27,-0.84,-64
1785973454130,273106,Knee,0.186416,-0.964288,-0.166896,1.4,-3.85,-0.98,-64
1785973454636,273510,Knee,0.188368,-0.969168,-0.162016,1.12,-4.2,-1.19,-64
1785973455153,274072,Knee,0.189344,-0.96624,-0.165432,1.4,-4.2,-0.7,-64
1785973455656,274525,Knee,0.18788,-0.967704,-0.163968,1.19,-4.41,-0.7,-64
1785973455774,274685,Knee,0.182024,-0.960384,-0.162016,1.26,-4.13,-1.05,-64
1785973456186,275088,Knee,0.186904,-0.967216,-0.163968,1.4,-4.13,-0.91,-64
1785973456784,275653,Knee,0.183976,-0.962336,-0.162504,1.4,-4.2,-0.56,-64
1785973456809,275732,Knee,0.192272,-0.969168,-0.16592,1.54,-4.13,-0.7,-64
1785973457296,276133,Knee,0.183976,-0.970144,-0.165432,1.47,-4.13,-0.91,-64
1785973457312,276213,Knee,0.188856,-0.962336,-0.161528,1.26,-4.06,-0.84,-64
1785973457809,276697,Knee,0.18788,-0.967216,-0.16104,1.47,-4.06,-0.63,-63
1785973458319,277181,Knee,0.187392,-0.96624,-0.166408,1.68,-3.99,-0.84,-64
1785973458332,277263,Knee,0.189832,-0.965752,-0.16348,1.4,-4.2,-0.98,-64
1785973458838,277739,Knee,0.183976,-0.970144,-0.16348,1.54,-3.99,-0.91,-64
1785973459344,278219,Knee,0.187392,-0.969168,-0.164456,1.54,-4.2,-1.12,-64
1785973459375,278299,Knee,0.183,-0.965752,-0.16104,1.61,-4.13,-0.91,-64
1785973459868,278782,Knee,0.183488,-0.965264,-0.166896,1.33,-4.2,-0.91,-64
1785973460374,279268,Knee,0.188368,-0.971608,-0.165432,1.12,-4.34,-0.84,-64
1785973460981,279831,Knee,0.184952,-0.965752,-0.159088,1.47,-4.13,-0.7,-63
1785973461015,279912,Knee,0.186416,-0.967216,-0.162504,1.54,-4.2,-0.63,-63
1785973461493,280310,Knee,0.186416,-0.968192,-0.164944,1.75,-4.06,-0.91,-64
1785973461501,280390,Knee,0.187392,-0.967216,-0.163968,1.68,-4.2,-0.91,-64
1785973462007,280874,Knee,0.188856,-0.969168,-0.164456,1.19,-4.27,-0.77,-63
1785973462009,280955,Knee,0.182512,-0.96624,-0.164456,1.19,-4.13,-0.91,-63
1785973462519,281360,Knee,0.188368,-0.973072,-0.165432,1.4,-3.99,-0.77,-64
1785973462548,281440,Knee,0.181048,-0.960872,-0.16104,1.4,-4.06,-1.05,-64
1785973463037,281926,Knee,0.181536,-0.964776,-0.162016,1.26,-4.2,-0.91,-64
1785973463542,282407,Knee,0.185928,-0.967704,-0.164944,0.98,-4.34,-0.77,-64
1785973463556,282487,Knee,0.181048,-0.965752,-0.166408,1.4,-3.92,-0.91,-64
1785973464062,282969,Knee,0.183976,-0.96624,-0.162992,1.19,-4.2,-0.84,-63
1785973464566,283449,Knee,0.181048,-0.969656,-0.164456,1.47,-4.06,-0.91,-64
1785973465084,284012,Knee,0.184952,-0.967216,-0.164944,1.68,-3.92,-0.56,-64
1785973465692,284494,Knee,0.184464,-0.96624,-0.166896,1.12,-4.2,-0.91,-64
1785973465693,284574,Knee,0.185928,-0.967704,-0.163968,1.4,-4.13,-0.91,-64
1785973466205,285052,Knee,0.186416,-0.969168,-0.160064,1.47,-4.27,-1.19,-64
1785973466214,285132,Knee,0.181536,-0.96624,-0.163968,1.68,-4.13,-0.77,-64
1785973466716,285531,Knee,0.196664,-0.962336,-0.159576,1.61,-4.06,-0.63,-64
1785973466723,285611,Knee,0.174704,-0.957944,-0.157136,0.98,-2.66,-0.28,-64
1785973467229,286088,Knee,0.188856,-0.96868,-0.164944,1.68,-3.85,-1.33,-63
1785973467254,286168,Knee,0.179096,-0.9638,-0.162016,1.4,-4.06,-1.05,-63
1785973467747,286646,Knee,0.183976,-0.964288,-0.164456,1.33,-4.27,-0.7,-63
1785973468253,287127,Knee,0.185928,-0.967216,-0.16592,1.26,-4.06,-0.98,-63
1785973468787,287688,Knee,0.186904,-0.972584,-0.166408,1.26,-4.2,-0.84,-63
1785973469287,288170,Knee,0.186904,-0.969656,-0.166408,1.4,-4.06,-0.84,-63
1785973469891,288734,Knee,0.184952,-0.968192,-0.162016,1.61,-4.06,-0.98,-63
1785973469922,288814,Knee,0.183,-0.966728,-0.165432,1.47,-4.13,-0.91,-63
1785973470404,289216,Knee,0.18544,-0.967704,-0.16592,1.54,-4.06,-0.7,-63
1785973470406,289295,Knee,0.183,-0.965752,-0.165432,1.4,-4.13,-0.77,-63
1785973470919,289776,Knee,0.184952,-0.969168,-0.164944,1.33,-4.2,-0.84,-63
1785973471432,290258,Knee,0.182512,-0.966728,-0.164456,1.26,-4.2,-0.7,-63
1785973471458,290338,Knee,0.186416,-0.96868,-0.16348,1.33,-3.99,-0.7,-63
1785973471946,290819,Knee,0.184952,-0.969168,-0.16348,1.26,-4.13,-0.91,-63
1785973472458,291300,Knee,0.183,-0.968192,-0.163968,1.47,-4.34,-0.63,-63
1785973472970,291860,Knee,0.183976,-0.965752,-0.162992,1.26,-4.13,-1.05,-63
1785973473475,292345,Knee,0.186416,-0.968192,-0.16348,1.61,-4.27,-0.77,-63
1785973474094,292905,Knee,0.183,-0.96868,-0.164456,1.4,-4.13,-0.84,-63
1785973474095,292986,Knee,0.184952,-0.969168,-0.167384,1.33,-4.2,-0.98,-63
1785973474605,293387,Knee,0.185928,-0.972096,-0.163968,1.4,-4.13,-0.91,-63
1785973474606,293467,Knee,0.182024,-0.962336,-0.164456,1.4,-4.13,-0.91,-63
1785973475117,293947,Knee,0.182024,-0.964776,-0.16348,1.54,-4.13,-0.91,-63
1785973475134,294027,Knee,0.18544,-0.96868,-0.166408,1.54,-4.06,-0.77,-63
1785973475626,294472,Knee,0.184952,-0.96624,-0.165432,1.47,-3.99,-0.91,-63
1785973476145,294956,Knee,0.182512,-0.968192,-0.16348,1.54,-4.06,-0.84,-63
1785973476163,295036,Knee,0.181048,-0.970144,-0.162504,1.54,-4.2,-0.7,-63
1785973476650,295520,Knee,0.182512,-0.966728,-0.166896,1.33,-4.27,-0.98,-63
1785973476652,295600,Knee,0.183,-0.970632,-0.161528,1.26,-4.13,-0.98,-63
1785973477167,296002,Knee,0.183976,-0.968192,-0.164456,1.33,-4.13,-0.84,-63
1785973477685,296566,Knee,0.183,-0.968192,-0.167384,1.54,-4.13,-0.77,-63
1785973478185,297050,Knee,0.18544,-0.96624,-0.164944,1.47,-4.06,-0.84,-63
1785973478802,297611,Knee,0.183,-0.969656,-0.164456,1.4,-4.13,-0.7,-63
1785973478809,297689,Knee,0.182024,-0.968192,-0.163968,1.47,-4.27,-0.77,-63
1785973479312,298093,Knee,0.184464,-0.968192,-0.164944,1.47,-4.2,-0.98,-63
1785973479314,298174,Knee,0.181536,-0.968192,-0.164944,1.33,-4.27,-0.91,-63
1785973479824,298653,Knee,0.182024,-0.966728,-0.163968,1.33,-4.06,-0.77,-63
1785973479856,298733,Knee,0.184464,-0.970144,-0.160552,1.19,-4.2,-0.91,-63
1785973480342,299213,Knee,0.184464,-0.965752,-0.166896,1.61,-3.99,-0.84,-63
1785973480848,299696,Knee,0.183488,-0.968192,-0.163968,1.61,-4.06,-0.84,-63
1785973481382,300260,Knee,0.182024,-0.962824,-0.164456,1.47,-4.27,-1.05,-63
1785973481882,300746,Knee,0.181536,-0.966728,-0.154696,0.98,-4.06,-1.26,-63
1785973482385,301227,Knee,0.188368,-0.967216,-0.159576,0.63,-4.76,-1.12,-64
1785973482999,301790,Knee,0.177144,-0.975024,-0.150792,1.75,-3.71,-1.54,-63
1785973483001,301870,Knee,0.183,-0.958432,-0.161528,2.52,-4.48,-1.33,-63
1785973483514,302350,Knee,0.17812,-0.964288,-0.1586,1.19,-4.97,-0.77,-64
1785973484026,302831,Knee,0.18788,-0.965752,-0.163968,0.84,-4.34,-0.49,-64
1785973484028,302910,Knee,0.178608,-0.97112,-0.154208,0.84,-4.48,-1.05,-64
1785973484535,303391,Knee,0.182512,-0.967216,-0.158112,1.61,-3.99,-0.56,-63
1785973485047,303872,Knee,0.189344,-0.972096,-0.165432,1.61,-4.13,-0.63,-64
1785973485048,303952,Knee,0.181048,-0.962824,-0.163968,1.26,-4.13,-1.12,-64
1785973485565,304437,Knee,0.183,-0.969168,-0.162504,1.54,-4.13,-0.84,-64
1785973486071,304919,Knee,0.182512,-0.964776,-0.165432,1.68,-3.99,-0.98,-64
1785973486073,305000,Knee,0.183976,-0.969656,-0.16104,1.54,-3.99,-1.05,-64
1785973486582,305403,Knee,0.181048,-0.967216,-0.160552,1.47,-4.06,-0.91,-64
1785973487197,305965,Knee,0.187392,-0.973072,-0.162504,1.4,-4.27,-0.98,-64
1785973487199,306047,Knee,0.182024,-0.965264,-0.161528,1.4,-3.85,-1.05,-64
1785973487710,306529,Knee,0.181536,-0.965264,-0.162016,1.4,-4.13,-0.77,-64
1785973487735,306610,Knee,0.184464,-0.970144,-0.161528,1.4,-4.06,-0.56,-64
1785973488221,307010,Knee,0.184952,-0.9638,-0.16592,1.47,-4.2,-0.91,-64
1785973488229,307090,Knee,0.18544,-0.974048,-0.158112,1.4,-3.99,-0.84,-64
1785973488734,307651,Knee,0.182024,-0.96624,-0.162016,1.47,-4.2,-0.98,-64
1785973489246,308054,Knee,0.180072,-0.966728,-0.162016,1.4,-4.06,-0.77,-64
1785973489266,308133,Knee,0.182512,-0.968192,-0.163968,1.68,-3.99,-0.7,-64
1785973490269,309102,Knee,0.183,-0.967704,-0.162016,1.47,-4.13,-0.7,-64
1785973490792,309660,Knee,0.180072,-0.965752,-0.162504,1.47,-4.2,-0.63,-64
1785973491298,310144,Knee,0.183976,-0.96868,-0.162992,1.12,-4.2,-0.98,-64
1785973492420,311189,Knee,0.183488,-0.969168,-0.163968,1.4,-4.27,-0.56,-64
1785973492422,311269,Knee,0.181536,-0.967704,-0.164944,1.26,-3.99,-0.91,-64
1785973492932,311832,Knee,0.181048,-0.969168,-0.158112,1.47,-4.27,-1.05,-64
1785973493444,312236,Knee,0.180072,-0.970144,-0.158112,1.33,-4.2,-0.84,-64
1785973493470,312316,Knee,0.183976,-0.969168,-0.165432,1.4,-4.2,-0.77,-64
1785973493956,312795,Knee,0.182024,-0.969168,-0.162992,1.47,-4.13,-0.84,-64
1785973493958,312875,Knee,0.181536,-0.973072,-0.161528,1.26,-4.2,-0.91,-64
1785973494467,313274,Knee,0.182024,-0.969168,-0.16104,1.26,-4.13,-0.77,-64
1785973494497,313354,Knee,0.182024,-0.969168,-0.162504,1.26,-4.13,-0.91,-64
1785973494983,313835,Knee,0.183976,-0.969168,-0.162016,1.54,-4.06,-0.84,-64
1785973495514,314365,Knee,0.183,-0.96868,-0.160552,1.4,-4.13,-0.91,-64
1785973496107,314849,Knee,0.181536,-0.96868,-0.16348,1.33,-4.13,-0.77,-64
1785973496108,314930,Knee,0.183488,-0.969168,-0.16104,1.61,-4.13,-0.77,-64
1785973496619,315410,Knee,0.184464,-0.968192,-0.162016,1.47,-3.99,-0.91,-64
1785973496641,315490,Knee,0.18056,-0.96868,-0.160064,1.4,-4.27,-0.77,-64
1785973497130,315890,Knee,0.179584,-0.968192,-0.16348,1.19,-4.2,-0.84,-64
1785973497138,315971,Knee,0.182024,-0.963312,-0.162992,1.4,-4.13,-0.98,-64
1785973497642,316452,Knee,0.185928,-0.972096,-0.161528,1.54,-4.06,-0.98,-63
1785973498179,317016,Knee,0.18056,-0.96868,-0.165432,1.4,-4.27,-0.77,-63
1785973498666,317497,Knee,0.179584,-0.966728,-0.162992,1.61,-4.06,-0.84,-63
1785973498668,317577,Knee,0.183976,-0.972096,-0.16348,1.26,-4.2,-0.91,-63
1785973499707,318543,Knee,0.182512,-0.9638,-0.166408,1.19,-4.48,-1.26,-64
1785973500202,319026,Knee,0.183488,-0.965752,-0.157624,1.12,-4.55,-0.49,-64
1785973500817,319595,Knee,0.186416,-0.969656,-0.16592,1.82,-3.92,-0.7,-64
1785973500818,319674,Knee,0.179584,-0.96624,-0.165432,3.01,-3.43,-0.63,-64
1785973501328,320158,Knee,0.183488,-0.969656,-0.165432,1.54,-4.2,-0.63,-63
1785973501844,320644,Knee,0.185928,-0.970632,-0.160552,1.4,-4.2,-0.98,-63
1785973501878,320725,Knee,0.180072,-0.96868,-0.168848,1.26,-4.41,-1.05,-63
1785973502352,321125,Knee,0.18056,-0.968192,-0.162016,1.68,-3.64,-0.77,-63
1785973502363,321206,Knee,0.179584,-0.97112,-0.16104,1.96,-3.99,-0.91,-63
1785973502865,321685,Knee,0.18056,-0.97112,-0.162016,1.47,-4.2,-0.91,-63
1785973503408,322247,Knee,0.181048,-0.961848,-0.162504,1.19,-4.06,-0.7,-63
1785973503898,322730,Knee,0.179584,-0.968192,-0.165432,1.19,-4.13,-0.56,-63
1785973504401,323211,Knee,0.178608,-0.96868,-0.164456,1.4,-4.13,-1.12,-63
1785973505016,323778,Knee,0.18056,-0.97112,-0.164944,1.82,-4.06,-0.77,-63
1785973505023,323859,Knee,0.183976,-0.972096,-0.168848,1.47,-4.13,-0.91,-63
1785973505439,324260,Knee,0.18056,-0.967216,-0.167384,1.47,-4.06,-0.98,-63
1785973506040,324827,Knee,0.18056,-0.96868,-0.167872,1.54,-4.13,-0.7,-63
1785973506063,324908,Knee,0.179584,-0.967216,-0.16348,1.47,-4.06,-0.84,-63
1785973506563,325387,Knee,0.17812,-0.966728,-0.164456,1.19,-4.2,-0.91,-63
1785973507064,325868,Knee,0.181536,-0.970632,-0.16348,1.26,-4.13,-0.84,-63
1785973507608,326430,Knee,0.180072,-0.966728,-0.165432,1.47,-4.13,-0.7,-63
1785973508094,326912,Knee,0.181048,-0.967704,-0.165432,1.47,-4.06,-0.98,-63
1785973508599,327395,Knee,0.179584,-0.965752,-0.163968,1.33,-4.2,-0.77,-63
1785973508633,327475,Knee,0.180072,-0.96868,-0.162504,1.4,-4.27,-0.56,-63
1785973509214,327957,Knee,0.179584,-0.96868,-0.165432,1.26,-3.99,-0.98,-63
1785973509223,328038,Knee,0.176168,-0.969656,-0.164456,1.47,-4.13,-0.98,-63
1785973509727,328520,Knee,0.178608,-0.966728,-0.166408,1.47,-4.27,-0.84,-63
1785973509757,328601,Knee,0.177632,-0.968192,-0.165432,1.4,-4.2,-0.7,-63
1785973510242,329002,Knee,0.176656,-0.969656,-0.166896,1.47,-3.99,-0.84,-63
1785973510244,329082,Knee,0.179584,-0.96624,-0.165432,1.4,-4.06,-1.05,-63
1785973510759,329565,Knee,0.182024,-0.969656,-0.165432,1.4,-4.13,-0.91,-63
1785973511265,330047,Knee,0.177144,-0.963312,-0.169824,1.12,-4.13,-0.7,-63
1785973511285,330127,Knee,0.180072,-0.97112,-0.164944,1.26,-3.99,-0.7,-63
1785973511776,330608,Knee,0.181048,-0.973072,-0.165432,1.47,-3.92,-0.84,-63
1785973512293,331093,Knee,0.17812,-0.966728,-0.166896,1.26,-4.2,-0.98,-63
1785973512801,331571,Knee,0.181048,-0.965752,-0.170312,1.75,-4.06,-0.77,-63
1785973512808,331651,Knee,0.178608,-0.966728,-0.165432,1.54,-4.06,-0.77,-63
1785973513413,332053,Knee,0.180072,-0.967704,-0.164456,1.54,-4.2,-0.84,-63
1785973513415,332134,Knee,0.177632,-0.968192,-0.168848,1.4,-4.27,-0.91,-63
1785973513416,332213,Knee,0.18056,-0.970144,-0.164456,1.26,-4.2,-0.84,-63
1785973513928,332611,Knee,0.178608,-0.967704,-0.167872,1.19,-4.06,-0.91,-63
1785973513930,332692,Knee,0.181536,-0.967704,-0.16592,1.4,-4.06,-0.98,-63
1785973513935,332770,Knee,0.177632,-0.96624,-0.165432,1.54,-4.2,-0.77,-63
1785973514440,333171,Knee,0.181536,-0.96624,-0.163968,1.61,-4.06,-0.84,-63
1785973514441,333252,Knee,0.177632,-0.967704,-0.164944,1.33,-4.2,-0.7,-63
1785973514949,333733,Knee,0.180072,-0.968192,-0.16836,1.4,-4.13,-0.91,-63
1785973514969,333813,Knee,0.179096,-0.968192,-0.163968,1.4,-4.06,-0.84,-63
1785973515464,334255,Knee,0.178608,-0.96624,-0.164944,1.47,-4.13,-0.77,-63
1785973515995,334814,Knee,0.179096,-0.966728,-0.165432,1.33,-4.27,-0.98,-63
1785973516500,335300,Knee,0.179096,-0.967704,-0.164944,1.33,-4.13,-0.77,-63
1785973516999,335783,Knee,0.178608,-0.967216,-0.163968,1.4,-4.27,-0.91,-63
1785973517535,336346,Knee,0.182512,-0.967216,-0.16836,1.33,-4.06,-0.77,-63
1785973518126,336830,Knee,0.178608,-0.966728,-0.164456,0.91,-4.27,-1.05,-63
1785973518127,336912,Knee,0.176656,-0.966728,-0.16592,1.4,-4.41,-1.05,-63
1785973518639,337391,Knee,0.182512,-0.970632,-0.16836,1.89,-4.2,-0.7,-64
1785973518663,337470,Knee,0.180072,-0.967704,-0.166408,1.47,-4.06,-0.77,-64
1785973519152,337949,Knee,0.18056,-0.96624,-0.16348,1.61,-3.99,-0.77,-63
1785973519658,338427,Knee,0.179096,-0.96868,-0.164456,1.4,-4.2,-0.98,-63
1785973519661,338506,Knee,0.178608,-0.96868,-0.163968,1.33,-4.13,-0.91,-63
1785973520182,338986,Knee,0.179584,-0.966728,-0.165432,1.61,-3.92,-0.63,-63
1785973520683,339471,Knee,0.182512,-0.971608,-0.16592,0.98,-4.2,-0.7,-63
1785973521198,339951,Knee,0.179096,-0.967704,-0.166896,0.91,-4.27,-0.91,-63
1785973521228,340031,Knee,0.179096,-0.96868,-0.164456,1.4,-4.13,-0.77,-63
